File: Exo/tga/Data/TGA.txt
Title                                                           21.09.2015 09:32
________________________________________________________________________________

Title

Curve Name:
  |CJ Top2 avec CNT lav EtOH 25/800˚C 5˚C/min Air-CJ Blanc 25/800˚C 5˚C/min Air, 31.08.2015 14:40:49
  Performed 27.07.2015 21:28:55
Curve Values:
          Index              t           Tset          Tread           Mass
                           [s]           [˚C]           [˚C]           [mg]
              0              0        32.3555             25        34.9786
             21             21        32.5417             25        34.9526
             42             42        32.7044             25        34.9229
             63             63         32.861             25        34.8927
             84             84        32.9776             25        34.8618
            105            105        33.0954             25        34.8329
            126            126        33.2069             25        34.8017
            147            147        33.2603             25        34.7701
            168            168        33.3602             25        34.7374
            189            189          33.41             25        34.7074
            210            210         33.465             25        34.6746
            231            231        33.5055             25        34.6423
            252            252        33.5248             25        34.6103
            273            273        33.5713             25         34.579
            294            294        33.6052             25        34.5463
            315            315        33.6356             25         34.514
            336            336        33.6449             25        34.4828
            357            357        33.6605             25        34.4501
            378            378        33.6867             25        34.4178
            399            399        33.6984             25        34.3851
            420            420         33.695             25        34.3531
            441            441        33.7046             25        34.3195
            462            462        33.7035             25        34.2883
            483            483        33.7222             25        34.2566
            504            504         33.735             25        34.2246
            525            525        33.7341             25        34.1925
            546            546        33.7393             25        34.1597
            567            567         33.739             25        34.1273
            588            588        33.7536             25         34.094
            609            609        33.7374             25        34.0625
            630            630        33.7525             25        34.0298
            651            651         33.758             25        33.9993
            672            672        33.7572             25        33.9675
            693            693        33.7698             25        33.9348
            714            714        33.7533             25        33.9017
            735            735        33.7568             25        33.8701
            756            756        33.7536             25        33.8371
            777            777        33.7626             25        33.8062
            798            798        33.7612             25        33.7735
            819            819        33.7718             25        33.7408
            840            840        33.7657             25        33.7089
            861            861        33.7657             25        33.6776
            882            882        33.7714             25        33.6449
            903            903        33.7695             25        33.6131
            924            924        33.7759             25        33.5808
            945            945        33.7669             25        33.5483
            966            966         33.769             25         33.517
            987            987        33.7677             25        33.4846
           1008           1008        33.7732             25        33.4518
           1029           1029        33.7597             25        33.4206
           1050           1050        33.7704             25        33.3878
           1071           1071         33.759             25        33.3561
           1092           1092        33.7727             25        33.3232
           1113           1113        33.7592             25        33.2903
           1134           1134        33.7671             25        33.2595
           1155           1155        33.7647             25        33.2268
           1176           1176        33.7715             25        33.1949
           1197           1197        33.7667             25        33.1619
           1218           1218        33.7748             25        33.1316
           1239           1239        33.7707             25        33.0991
           1260           1260        33.7773             25        33.0667
           1281           1281        33.7771             25        33.0343
           1302           1302        33.7765             25        33.0025
           1323           1323        33.7708             25        32.9702
           1344           1344         33.775             25        32.9384
           1365           1365        33.7913             25        32.9064
           1386           1386        33.7794             25        32.8753
           1407           1407        33.7734             25        32.8428
           1428           1428        33.7706             25        32.8115
           1449           1449        33.7644             25        32.7787
           1470           1470        33.7745             25         32.746
           1491           1491        33.7649             25        32.7148
           1512           1512        33.7771             25        32.6832
           1533           1533        33.7653             25        32.6513
           1554           1554        33.7734             25        32.6188
           1575           1575        33.7698             25        32.5867
           1596           1596        33.7718             25        32.5541
           1617           1617        33.7633             25        32.5225
           1638           1638        33.7704             25        32.4904
           1659           1659        33.7839             25        32.4573
           1680           1680        33.7752             25        32.4252
           1701           1701        33.7648             25         32.394
           1722           1722        33.7752             25         32.362
           1743           1743        33.7825             25         32.329
           1764           1764         33.782             25        32.2982
           1785           1785        33.7708             25        32.2658
           1806           1806        33.9297           25.5        32.2323
           1827           1827        35.0423          27.25        32.2005
           1848           1848        36.3169             29        32.1656
           1869           1869        37.6707          30.75        32.1283
           1890           1890        39.0849           32.5        32.0866
           1911           1911        40.5166          34.25        32.0421
           1932           1932         41.985             36        31.9944
           1953           1953        43.4636          37.75        31.9426
           1974           1974        44.9319           39.5        31.8855
           1995           1995        46.4492          41.25        31.8241
           2016           2016        47.9668             43        31.7556
           2037           2037        49.4916          44.75        31.6813
           2058           2058        51.0144           46.5         31.601
           2079           2079        52.5439          48.25        31.5128
           2100           2100         54.079             50        31.4184
           2121           2121        55.6301          51.75         31.314
           2142           2142        57.1559           53.5        31.2007
           2163           2163        58.7277          55.25        31.0762
           2184           2184        60.2816             57        30.9421
           2205           2205        61.8259          58.75        30.7924
           2226           2226        63.3825           60.5        30.6287
           2247           2247        64.9453          62.25        30.4523
           2268           2268        66.4837             64        30.2556
           2289           2289         68.052          65.75        30.0407
           2310           2310         69.609           67.5        29.8026
           2331           2331        71.1469          69.25        29.5377
           2352           2352        72.6813             71        29.2472
           2373           2373        74.2221          72.75        28.9188
           2394           2394        75.7529           74.5        28.5556
           2415           2415        77.2601          76.25        28.1463
           2436           2436        78.7573             78        27.6787
           2457           2457        80.2316          79.75        27.1496
           2478           2478        81.6839           81.5        26.5385
           2499           2499        83.0892          83.25        25.8237
           2520           2520        84.4427             85        24.9679
           2541           2541        85.6901          86.75        23.9253
           2562           2562        86.8282           88.5        22.6431
           2583           2583        87.8915          90.25        21.1191
           2604           2604        88.9025             92        19.3979
           2625           2625        89.9692          93.75        17.6023
           2646           2646        91.1107           95.5        15.7769
           2667           2667        92.4189          97.25        14.0347
           2688           2688        93.9659             99        12.5003
           2709           2709        95.7114         100.75        11.2192
           2730           2730        97.6269          102.5        10.2219
           2751           2751        99.4993         104.25        9.31701
           2772           2772        101.317            106        8.47576
           2793           2793        103.027         107.75        7.64737
           2814           2814        104.596          109.5        6.78302
           2835           2835        106.024         111.25         5.8306
           2856           2856        107.616            113        4.87573
           2877           2877        109.815         114.75        4.23522
           2898           2898        112.392          116.5        3.95353
           2919           2919        114.993         118.25        3.83676
           2940           2940        117.482            120        3.79214
           2961           2961        119.848         121.75        3.77776
           2982           2982        122.063          123.5        3.77154
           3003           3003        124.167         125.25        3.76726
           3024           3024        126.203            127        3.76665
           3045           3045         128.16         128.75        3.76461
           3066           3066        130.074          130.5        3.76348
           3087           3087        131.949         132.25        3.76246
           3108           3108        133.797            134        3.76318
           3129           3129        135.603         135.75        3.76244
           3150           3150        137.397          137.5         3.7629
           3171           3171        139.186         139.25        3.76278
           3192           3192         140.95            141         3.7633
           3213           3213        142.713         142.75        3.76246
           3234           3234        144.471          144.5         3.7626
           3255           3255        146.219         146.25        3.76113
           3276           3276        147.955            148        3.76096
           3297           3297        149.694         149.75        3.76054
           3318           3318        151.432          151.5        3.76011
           3339           3339        153.166         153.25        3.75971
           3360           3360        154.901            155        3.75914
           3381           3381        156.638         156.75        3.75806
           3402           3402        158.368          158.5         3.7571
           3423           3423        160.097         160.25        3.75614
           3444           3444        161.849            162          3.755
           3465           3465        163.585         163.75        3.75219
           3486           3486        165.322          165.5        3.75104
           3507           3507        167.053         167.25        3.74944
           3528           3528        168.798            169        3.74771
           3549           3549        170.535         170.75        3.74475
           3570           3570        172.283          172.5        3.74199
           3591           3591        174.029         174.25        3.73813
           3612           3612        175.767            176        3.73328
           3633           3633        177.521         177.75        3.73038
           3654           3654        179.259          179.5        3.72389
           3675           3675        181.014         181.25         3.7188
           3696           3696        182.773            183        3.71239
           3717           3717        184.528         184.75        3.70477
           3738           3738        186.282          186.5        3.69673
           3759           3759        188.037         188.25        3.68777
           3780           3780        189.793            190        3.67719
           3801           3801        191.561         191.75        3.66436
           3822           3822        193.316          193.5        3.65113
           3843           3843        195.079         195.25        3.63585
           3864           3864        196.845            197        3.61846
           3885           3885        198.608         198.75        3.59739
           3906           3906        200.371          200.5        3.56911
           3927           3927         202.11         202.25        3.54019
           3948           3948        203.843            204        3.50427
           3969           3969        205.571         205.75        3.46366
           3990           3990        207.337          207.5        3.43275
           4011           4011        209.076         209.25        3.40257
           4032           4032        210.833            211        3.37765
           4053           4053        212.587         212.75        3.35241
           4074           4074        214.348          214.5        3.33035
           4095           4095        216.096         216.25        3.30906
           4116           4116        217.863            218         3.2894
           4137           4137        219.606         219.75        3.26865
           4158           4158        221.362          221.5        3.24997
           4179           4179         223.13         223.25        3.23033
           4200           4200        224.873            225         3.2114
           4221           4221        226.635         226.75        3.19204
           4242           4242        228.401          228.5        3.17399
           4263           4263        230.166         230.25        3.15576
           4284           4284        231.928            232        3.13778
           4305           4305         233.69         233.75        3.11946
           4326           4326        235.455          235.5        3.10188
           4347           4347        237.224         237.25        3.08269
           4368           4368        238.993            239        3.06423
           4389           4389        240.762         240.75        3.04684
           4410           4410        242.525          242.5        3.02817
           4431           4431        244.295         244.25        3.00948
           4452           4452        246.063            246        2.99148
           4473           4473        247.829         247.75        2.97368
           4494           4494        249.608          249.5        2.95606
           4515           4515        251.389         251.25        2.93742
           4536           4536        253.152            253        2.91888
           4557           4557        254.925         254.75        2.90075
           4578           4578        256.701          256.5        2.88361
           4599           4599        258.473         258.25        2.86554
           4620           4620        260.256            260        2.84728
           4641           4641        262.034         261.75        2.82979
           4662           4662        263.811          263.5        2.81095
           4683           4683          265.6         265.25        2.78905
           4704           4704          267.4            267        2.76489
           4725           4725        269.192         268.75        2.73744
           4746           4746        270.989          270.5        2.70864
           4767           4767        272.789         272.25        2.68014
           4788           4788        274.579            274        2.64781
           4809           4809        276.374         275.75        2.61692
           4830           4830        278.178          277.5        2.58599
           4851           4851        279.996         279.25        2.55212
           4872           4872        281.875            281        2.50521
           4893           4893        283.809         282.75         2.4386
           4914           4914        285.747          284.5        2.34842
           4935           4935        287.643         286.25        2.24477
           4956           4956        289.429            288        2.15438
           4977           4977        291.118         289.75        2.09183
           4998           4998          292.8          291.5        2.05173
           5019           5019        294.474         293.25        2.02285
           5040           5040        296.174            295        2.00091
           5061           5061        297.886         296.75        1.98269
           5082           5082        299.608          298.5        1.96786
           5103           5103        301.333         300.25        1.95468
           5124           5124         303.07            302        1.94348
           5145           5145        304.833         303.75         1.9332
           5166           5166        306.586          305.5        1.92457
           5187           5187        308.355         307.25        1.91516
           5208           5208        310.123            309        1.90748
           5229           5229         311.89         310.75        1.90104
           5250           5250        313.663          312.5        1.89451
           5271           5271        315.439         314.25         1.8878
           5292           5292        317.201            316        1.88196
           5313           5313        318.977         317.75        1.87723
           5334           5334        320.755          319.5        1.87165
           5355           5355        322.535         321.25        1.86663
           5376           5376        324.309            323         1.8636
           5397           5397        326.091         324.75        1.85815
           5418           5418        327.875          326.5        1.85456
           5439           5439        329.651         328.25        1.85015
           5460           5460        331.439            330        1.84692
           5481           5481        333.219         331.75        1.84339
           5502           5502        335.002          333.5        1.84002
           5523           5523        336.772         335.25        1.83774
           5544           5544        338.564            337        1.83537
           5565           5565        340.355         338.75        1.83214
           5586           5586        342.123          340.5        1.82884
           5607           5607        343.913         342.25        1.82646
           5628           5628        345.678            344        1.82392
           5649           5649        347.481         345.75        1.82117
           5670           5670         349.25          347.5        1.81963
           5691           5691        351.038         349.25        1.81618
           5712           5712        352.817            351        1.81426
           5733           5733        354.602         352.75        1.81232
           5754           5754        356.387          354.5        1.81079
           5775           5775        358.164         356.25        1.80833
           5796           5796        359.953            358        1.80772
           5817           5817         361.74         359.75        1.80557
           5838           5838        363.514          361.5        1.80398
           5859           5859        365.294         363.25         1.8023
           5880           5880        367.066            365        1.80055
           5901           5901        368.847         366.75        1.79907
           5922           5922        370.626          368.5        1.79854
           5943           5943        372.405         370.25        1.79726
           5964           5964        374.176            372         1.7956
           5985           5985        375.948         373.75        1.79511
           6006           6006        377.725          375.5        1.79397
           6027           6027        379.518         377.25        1.79373
           6048           6048        381.289            379        1.79179
           6069           6069        383.066         380.75        1.79068
           6090           6090        384.847          382.5        1.78935
           6111           6111        386.628         384.25        1.78807
           6132           6132        388.411            386        1.78731
           6153           6153        390.187         387.75        1.78643
           6174           6174        391.966          389.5        1.78474
           6195           6195        393.749         391.25        1.78327
           6216           6216        395.526            393        1.78172
           6237           6237        397.307         394.75        1.78025
           6258           6258         399.08          396.5        1.78007
           6279           6279        400.873         398.25        1.77863
           6300           6300        402.646            400        1.77801
           6321           6321        404.421         401.75        1.77517
           6342           6342        406.203          403.5        1.77347
           6363           6363        407.978         405.25        1.77247
           6384           6384        409.762            407         1.7709
           6405           6405        411.538         408.75        1.76917
           6426           6426        413.315          410.5        1.76775
           6447           6447        415.109         412.25        1.76593
           6468           6468        416.891            414        1.76431
           6489           6489        418.678         415.75        1.76095
           6510           6510        420.462          417.5        1.75904
           6531           6531        422.248         419.25        1.75695
           6552           6552        424.026            421         1.7537
           6573           6573        425.812         422.75        1.75124
           6594           6594        427.597          424.5        1.74797
           6615           6615        429.367         426.25         1.7451
           6636           6636         431.15            428        1.74273
           6657           6657        432.916         429.75        1.74081
           6678           6678        434.686          431.5        1.73837
           6699           6699        436.452         433.25        1.73646
           6720           6720        438.225            435        1.73469
           6741           6741        439.993         436.75        1.73276
           6762           6762        441.763          438.5        1.73105
           6783           6783        443.529         440.25        1.73015
           6804           6804        445.299            442        1.72983
           6825           6825        447.071         443.75        1.72931
           6846           6846         448.84          445.5        1.72783
           6867           6867        450.614         447.25        1.72709
           6888           6888        452.384            449        1.72683
           6909           6909        454.147         450.75        1.72515
           6930           6930        455.915          452.5         1.7267
           6951           6951         457.69         454.25        1.72544
           6972           6972        459.461            456        1.72517
           6993           6993        461.232         457.75         1.7246
           7014           7014        462.996          459.5        1.72436
           7035           7035        464.759         461.25        1.72544
           7056           7056         466.53            463         1.7255
           7077           7077        468.293         464.75        1.72547
           7098           7098        470.063          466.5        1.72523
           7119           7119        471.832         468.25        1.72503
           7140           7140        473.601            470        1.72468
           7161           7161        475.365         471.75        1.72371
           7182           7182        477.134          473.5        1.72405
           7203           7203        478.903         475.25        1.72136
           7224           7224        480.671            477        1.72653
           7245           7245        482.443         478.75        1.72916
           7266           7266        484.219          480.5        1.72806
           7287           7287        485.976         482.25        1.72529
           7308           7308        487.748            484        1.72663
           7329           7329        489.513         485.75        1.72745
           7350           7350        491.283          487.5        1.72918
           7371           7371        493.046         489.25        1.72728
           7392           7392        494.816            491        1.72452
           7413           7413        496.587         492.75        1.72454
           7434           7434        498.337          494.5        1.72573
           7455           7455         500.11         496.25         1.7301
           7476           7476        501.866            498        1.73009
           7497           7497        503.631         499.75         1.7279
           7518           7518         505.39          501.5        1.72553
           7539           7539        507.142         503.25        1.72133
           7560           7560        508.905            505        1.72006
           7581           7581        510.673         506.75        1.72103
           7602           7602        512.428          508.5        1.71823
           7623           7623        514.187         510.25        1.71825
           7644           7644         515.95            512        1.71954
           7665           7665         517.71         513.75         1.7182
           7686           7686        519.471          515.5         1.7203
           7707           7707        521.237         517.25        1.71944
           7728           7728        523.002            519         1.7207
           7749           7749        524.762         520.75        1.72067
           7770           7770        526.517          522.5        1.71948
           7791           7791        528.284         524.25        1.71969
           7812           7812        530.056            526        1.72082
           7833           7833        531.813         527.75        1.72064
           7854           7854        533.578          529.5         1.7226
           7875           7875        535.344         531.25        1.72205
           7896           7896        537.103            533        1.72238
           7917           7917        538.863         534.75         1.7229
           7938           7938        540.627          536.5        1.72304
           7959           7959        542.392         538.25        1.72335
           7980           7980         544.15            540        1.72331
           8001           8001         545.91         541.75        1.72369
           8022           8022        547.674          543.5        1.72302
           8043           8043        549.429         545.25        1.72295
           8064           8064        551.188            547        1.72237
           8085           8085        552.949         548.75        1.72309
           8106           8106        554.706          550.5        1.72312
           8127           8127        556.465         552.25        1.72299
           8148           8148        558.225            554        1.72293
           8169           8169         559.98         555.75        1.72299
           8190           8190        561.741          557.5        1.72339
           8211           8211        563.498         559.25         1.7246
           8232           8232         565.25            561        1.72475
           8253           8253        567.003         562.75        1.72505
           8274           8274         568.75          564.5         1.7225
           8295           8295        570.509         566.25        1.72271
           8316           8316        572.262            568        1.72381
           8337           8337        574.013         569.75        1.72341
           8358           8358        575.759          571.5        1.72292
           8379           8379        577.509         573.25        1.72213
           8400           8400        579.271            575        1.72312
           8421           8421        581.023         576.75        1.72575
           8442           8442        582.769          578.5        1.72529
           8463           8463        584.522         580.25        1.72474
           8484           8484        586.279            582        1.72637
           8505           8505        588.023         583.75        1.72641
           8526           8526        589.779          585.5        1.72554
           8547           8547        591.525         587.25        1.72383
           8568           8568        593.272            589        1.72484
           8589           8589        595.017         590.75        1.72401
           8610           8610        596.769          592.5        1.72723
           8631           8631        598.524         594.25        1.72707
           8652           8652         600.26            596        1.73155
           8673           8673        602.005         597.75        1.72567
           8694           8694        603.746          599.5        1.72366
           8715           8715        605.483         601.25        1.72258
           8736           8736        607.226            603        1.72096
           8757           8757        608.976         604.75         1.7153
           8778           8778        610.718          606.5        1.71498
           8799           8799         612.46         608.25        1.72048
           8820           8820        614.206            610        1.72318
           8841           8841        615.954         611.75        1.72224
           8862           8862        617.703          613.5        1.72254
           8883           8883        619.435         615.25         1.7223
           8904           8904        621.184            617        1.72291
           8925           8925        622.915         618.75        1.72351
           8946           8946         624.66          620.5        1.72239
           8967           8967        626.401         622.25        1.72505
           8988           8988        628.134            624        1.73006
           9009           9009        629.868         625.75         1.7314
           9030           9030          631.6          627.5        1.73126
           9051           9051        633.346         629.25        1.73007
           9072           9072        635.078            631        1.72927
           9093           9093        636.809         632.75        1.72916
           9114           9114        638.529          634.5        1.73101
           9135           9135        640.259         636.25         1.7291
           9156           9156        641.997            638         1.7277
           9177           9177        643.728         639.75        1.72858
           9198           9198         645.47          641.5        1.72963
           9219           9219        647.207         643.25        1.72531
           9240           9240        648.944            645        1.72197
           9261           9261        650.674         646.75        1.72062
           9282           9282        652.417          648.5        1.72077
           9303           9303        654.153         650.25        1.72144
           9324           9324         655.88            652         1.7211
           9345           9345        657.606         653.75        1.72117
           9366           9366        659.339          655.5        1.71981
           9387           9387        661.069         657.25         1.7206
           9408           9408        662.802            659        1.72001
           9429           9429        664.534         660.75        1.72105
           9450           9450         666.26          662.5        1.72032
           9471           9471        667.994         664.25        1.72111
           9492           9492        669.718            666        1.72089
           9513           9513        671.444         667.75        1.72036
           9534           9534        673.176          669.5        1.72021
           9555           9555        674.894         671.25        1.71981
           9576           9576        676.626            673        1.71998
           9597           9597        678.346         674.75        1.72035
           9618           9618        680.075          676.5        1.72142
           9639           9639        681.807         678.25        1.72099
           9660           9660        683.524            680        1.71999
           9681           9681        685.254         681.75        1.71992
           9702           9702        686.974          683.5        1.72041
           9723           9723        688.698         685.25        1.72009
           9744           9744        690.422            687        1.71982
           9765           9765        692.139         688.75        1.71933
           9786           9786        693.853          690.5        1.71978
           9807           9807        695.581         692.25        1.71948
           9828           9828        697.297            694        1.71939
           9849           9849        699.021         695.75        1.71931
           9870           9870        700.742          697.5        1.71927
           9891           9891        702.454         699.25        1.71922
           9912           9912        704.167            701        1.71875
           9933           9933        705.886         702.75        1.71978
           9954           9954        707.605          704.5        1.71957
           9975           9975        709.328         706.25        1.72046
           9996           9996        711.046            708        1.71921
          10017          10017        712.767         709.75        1.71977
          10038          10038        714.485          711.5        1.72014
          10059          10059        716.206         713.25        1.72035
          10080          10080        717.918            715        1.71955
          10101          10101        719.634         716.75         1.7192
          10122          10122        721.353          718.5        1.72065
          10143          10143         723.07         720.25        1.71913
          10164          10164        724.781            722        1.71903
          10185          10185        726.499         723.75        1.71974
          10206          10206        728.222          725.5        1.72034
          10227          10227        729.931         727.25        1.71875
          10248          10248         731.65            729        1.71943
          10269          10269        733.363         730.75        1.71916
          10290          10290        735.085          732.5        1.71895
          10311          10311        736.792         734.25        1.71883
          10332          10332        738.509            736        1.71946
          10353          10353        740.222         737.75        1.71936
          10374          10374        741.931          739.5        1.71888
          10395          10395        743.643         741.25         1.7181
          10416          10416        745.355            743        1.71873
          10437          10437        747.069         744.75          1.719
          10458          10458        748.791          746.5        1.71835
          10479          10479        750.494         748.25        1.71886
          10500          10500         752.21            750        1.71845
          10521          10521        753.926         751.75        1.71871
          10542          10542        755.642          753.5         1.7189
          10563          10563        757.355         755.25         1.7192
          10584          10584        759.065            757          1.719
          10605          10605        760.789         758.75        1.71781
          10626          10626        762.501          760.5        1.71791
          10647          10647        764.206         762.25        1.71847
          10668          10668        765.921            764        1.71757
          10689          10689        767.639         765.75         1.7184
          10710          10710         769.34          767.5        1.71828
          10731          10731        771.052         769.25        1.71745
          10752          10752        772.767            771        1.71802
          10773          10773        774.471         772.75        1.71825
          10794          10794        776.181          774.5        1.71724
          10815          10815        777.887         776.25        1.71848
          10836          10836        779.599            778        1.71777
          10857          10857        781.299         779.75        1.71703
          10878          10878        783.021          781.5        1.71799
          10899          10899        784.728         783.25        1.71764
          10920          10920        786.433            785          1.717
          10941          10941        788.139         786.75        1.71768
          10962          10962        789.842          788.5        1.71795
          10983          10983        791.545         790.25        1.71773
          11004          11004        793.252            792        1.71719
          11025          11025        794.958         793.75        1.71664
          11046          11046        796.666          795.5        1.71736
          11067          11067        798.359         797.25        1.71701
          11088          11088        800.065            799        1.71786
          11109          11109        800.287            794        1.71809
          11130          11130        786.306            780         1.7178
          11151          11151         770.37            766        1.71659
          11172          11172        755.302            752         1.7185
          11193          11193        740.811            738        1.71826
          11214          11214        726.618            724        1.71775
          11235          11235        712.599            710        1.71903
          11256          11256        698.668            696        1.71797
          11277          11277        684.761            682        1.71893
          11298          11298        670.867            668        1.71829
          11319          11319        656.974            654        1.71865
          11340          11340        643.055            640        1.71854
          11361          11361        629.126            626        1.71763
          11382          11382        615.178            612        1.71781
          11403          11403        601.204            598        1.71947
          11424          11424        587.229            584        1.71802
          11445          11445        573.222            570        1.71838
          11466          11466        559.198            556        1.71774
          11487          11487        545.153            542        1.71758
          11508          11508        531.119            528        1.71794
          11529          11529        517.068            514        1.71811
          11550          11550        503.027            500        1.71864
          11571          11571        488.985            486        1.71898
          11592          11592        474.991            472        1.71864
          11613          11613        461.054            458        1.71849
          11634          11634        447.248            444        1.71829
          11655          11655        433.698            430        1.71857
          11676          11676        420.487            416        1.71785
          11697          11697         407.65            402        1.71818
          11718          11718        395.212            388        1.71826
          11739          11739         383.16            374        1.71829
          11760          11760        371.489            360        1.71828
          11781          11781        360.205            346        1.71826
          11802          11802         349.29            332        1.71975
          11823          11823        338.733            318        1.71817
          11844          11844        328.512            304        1.71805
          11865          11865        318.619            290        1.71805
          11886          11886        309.054            276        1.71904
          11907          11907        299.805            262        1.71816
          11928          11928        290.839            248        1.71841
          11949          11949        282.168            234        1.71866
          11970          11970        273.763            220        1.70488
          11991          11991        265.626            206        1.70253
          12012          12012        257.756            192        1.71376
          12033          12033        250.131            178        1.71478
          12054          12054         242.74            164        1.71491
          12075          12075        235.575            150        1.71567
          12096          12096        228.643            136        1.71515
          12117          12117        221.922            122        1.71594
          12138          12138        215.403            108        1.71581
          12159          12159        209.104             94        1.71622
          12180          12180         202.99             80        1.71624
          12201          12201        197.081             66         1.7164
          12222          12222        191.331             52        1.71674
          12243          12243        185.773             38        1.71656
          12261          12261        181.152             26        1.71832

Results:
  Content	23.02 %
  	0.87 mg

  Content	6.44 %
  	0.24 mg

  Content	22.21 %
  	0.84 mg

  Content	1.88 %
  	71.36e-03 mg

  Content	53.58 %
  	2.04 mg

Texts:

  |CJ Top2 avec CNT lav EtOH 25/800˚C 5˚C/min Air-CJ Blanc 25/800˚C 5˚C/min Air
  CJ Top2 avec CNT lav EtOH 25/800˚C 5˚C/min Air, 3.8000 mg

  Sample: CJ Top2 avec CNT lav EtOH 25/800˚C 5˚C/min Air, 3.8000 mg

  perte de masse totale entre 150 et 600˚C

  CJ Top2 avec CNT lav EtOH 25/800˚C 5˚C/min Air, 3.8000 mg New mass

  masse ˚chantillon apr˚s d˚part du solvant : 3.8 mg

Sample:
  CJ Top2 avec CNT lav EtOH 25/800˚C 5˚C/min Air, 3.8000 mg
Sample Remarks:
  avec couvercle; sans saphir; sans charbon
Experiment Comments:
  -
Evaluation:
  CJ Top2 avec CNT lav EtOH 25/800˚C 5˚C/min Air, 3.8000 mg New mass, 31.08.2015 14:40:49
Method:
  Screen 25/800˚C 5˚C/min + iso 25C 30mn Air
Sample Holder:
  Alumina 150ul
  Weight  : 0
  Material: Ceramic

________________________________________________________________________________
Not signed                                                        STARe SW 13.00